Folder: atom/general_functions

File: xrd.dat
2	0.39122
2.2	0.35678
2.4	0.33311
2.6	0.31783
2.8	0.30958
3	0.30772
3.2	0.31221
3.4	0.32359
3.6	0.34315
3.8	0.3732
4	0.41777
4.2	0.48388
4.4	0.58442
4.6	0.74491
4.8	1.0218
5	1.5615
5.2	2.8506
5.4	7.3977
5.6	47.865
5.8	27.08
6	4.6851
6.2	1.7204
6.4	0.85383
6.6	0.49665
6.8	0.31878
7	0.2189
7.2	0.15795
7.4	0.11842
7.6	0.091536
7.8	0.072569
8	0.058776
8.2	0.048493
8.4	0.040665
8.6	0.034603
8.8	0.02984
9	0.026055
9.2	0.023033
9.4	0.020644
9.6	0.018998
9.8	0.021468
10	0.016426
10.2	0.014727
10.4	0.013937
10.6	0.013687
10.8	0.014356
11	0.017813
11.2	0.038875
11.4	0.17115
11.6	0.026333
11.8	0.013726
12	0.010701
12.2	0.0094773
12.4	0.0088424
12.6	0.0084726
12.8	0.0082529
13	0.0081351
13.2	0.0080973
13.4	0.00813
13.6	0.0082312
13.8	0.0084037
14	0.0086551
14.2	0.0089985
14.4	0.0094545
14.6	0.010058
14.8	0.010889
15	0.01261
15.2	0.013392
15.4	0.014985
15.6	0.017504
15.8	0.021249
16	0.027113
16.2	0.037092
16.4	0.056334
16.6	0.10168
16.8	0.25667
17	1.5229
17.2	1.4012
17.4	0.23444
17.6	0.092644
17.8	0.053072
18	0.040369
18.2	0.031563
18.4	0.02952
18.6	0.031252
18.8	0.037071
19	0.049876
19.2	0.079385
19.4	0.16762
19.6	0.6775
19.8	2.4898
20	0.3306
20.2	0.1951
20.4	0.46216
20.6	2.0923
20.8	0.24686
21	0.084143
21.2	0.044785
21.4	0.029598
21.6	0.022516
21.8	0.019278
22	0.018742
22.2	0.021575
22.4	0.032399
22.6	0.080242
22.8	0.61544
23	0.16624
23.2	0.040912
23.4	0.020029
23.6	0.013188
23.8	0.010191
24	0.0087146
24.2	0.0082353
24.4	0.0077432
24.6	0.007704
24.8	0.0083093
25	0.0096728
25.2	0.010297
25.4	0.012859
25.6	0.018264
25.8	0.032199
26	0.089483
26.2	0.73278
26.4	0.16006
26.6	0.043872
26.8	0.029156
27	0.020279
27.2	0.018207
27.4	0.019791
27.6	0.024176
27.8	0.03288
28	0.050778
28.2	0.094554
28.4	0.24969
28.6	1.5986
28.8	1.196
29	0.20943
29.2	0.081859
29.4	0.044877
29.6	0.030676
29.8	0.028424
30	0.029455
30.2	0.069429
30.4	0.40689
30.6	0.052238
30.8	0.01948
31	0.011941
31.2	0.0091039
31.4	0.0088475
31.6	0.0074004
31.8	0.0066394
32	0.0087166
32.2	0.006209
32.4	0.0060818
32.6	0.006294
32.8	0.0067159
33	0.0073727
33.2	0.0083582
33.4	0.0099761
33.6	0.013902
33.8	0.01528
34	0.02103
34.2	0.033953
34.4	0.080782
34.6	0.40473
34.8	0.21098
35	1.3171
35.2	0.49052
35.4	0.11183
35.6	0.058285
35.8	0.049787
36	0.067769
36.2	0.14392
36.4	0.82487
36.6	0.77432
36.8	0.131
37	0.052368
37.2	0.029801
37.4	0.020809
37.6	0.017034
37.8	0.017079
38	0.018366
38.2	0.023405
38.4	0.042216
38.6	0.13601
38.8	1.0312
39	0.13398
39.2	0.041612
39.4	0.022538
39.6	0.017512
39.8	0.020296
40	0.051052
40.2	0.13531
40.4	0.073315
40.6	0.38014
40.8	0.050813
41	0.021304
41.2	0.017891
41.4	0.024859
41.6	0.063267
41.8	0.50544
42	0.12719
42.2	0.030579
42.4	0.014184
42.6	0.0087749
42.8	0.0064362
43	0.0056153
43.2	0.0051663
43.4	0.0049136
43.6	0.0065222
43.8	0.02109
44	0.024089
44.2	0.0074535
44.4	0.0062121
44.6	0.006396
44.8	0.0084331
45	0.013699
45.2	0.031335
45.4	0.16313
45.6	0.22588
45.8	0.037874
46	0.019436
46.2	0.019993
46.4	0.038441
46.6	0.20692
46.8	0.21419
47	0.035731
47.2	0.014369
47.4	0.0089928
47.6	0.0056853
47.8	0.0050678
48	0.0035392
48.2	0.0030181
48.4	0.0028104
48.6	0.00282
48.8	0.0031571
49	0.0044252
49.2	0.0053059
49.4	0.010597
49.6	0.051223
49.8	0.059987
50	0.059996
50.2	0.024981
50.4	0.0073142
50.6	0.0046474
50.8	0.0052792
51	0.0080621
51.2	0.034067
51.4	0.0058214
51.6	0.003451
51.8	0.0031144
52	0.0033306
52.2	0.0043116
52.4	0.0052109
52.6	0.008661
52.8	0.026349
53	0.1212
53.2	0.019575
53.4	0.01327
53.6	0.017538
53.8	0.042289
54	0.17147
54.2	0.20748
54.4	0.44736
54.6	0.06352
54.8	0.028438
55	0.027889
55.2	0.080014
55.4	0.30446
55.6	0.038602
55.8	0.014496
56	0.0088569
56.2	0.0068396
56.4	0.0070047
56.6	0.00846
56.8	0.018478
57	0.13044
57.2	0.041077
57.4	0.011468
57.6	0.0064877
57.8	0.0056083
58	0.0067245
58.2	0.01398
58.4	0.083427
58.6	0.016432
58.8	0.013588
59	0.024418
59.2	0.086851
59.4	0.53417
59.6	0.062967
59.8	0.019392
60	0.010347