Folder: atom/examples/Basic_examples

File: xrd.dat
2	86.753
2.2	99.142
2.4	71.097
2.6	40.381
2.8	23.927
3	16.029
3.2	12.402
3.4	10.894
3.6	10.824
3.8	12.408
4	16.259
4.2	22.534
4.4	26.293
4.6	20.593
4.8	12.814
5	8.1097
5.2	5.732
5.4	4.3765
5.6	3.6357
5.8	3.4588
6	3.7882
6.2	4.6021
6.4	5.9117
6.6	6.8648
6.8	5.7235
7	3.9896
7.2	2.8845
7.4	2.0686
7.6	1.6247
7.8	1.3307
8	1.153
8.2	1.1546
8.4	1.2725
8.6	1.5315
8.8	1.7416
9	1.5455
9.2	1.1798
9.4	0.89063
9.6	0.74934
9.8	0.68659
10	0.6907
10.2	0.66734
10.4	0.61851
10.6	0.59063
10.8	0.60568
11	0.54301
11.2	0.49733
11.4	0.46814
11.6	0.46592
11.8	0.49103
12	0.53202
12.2	0.59537
12.4	0.58822
12.6	0.53025
12.8	0.49148
13	0.51994
13.2	0.59674
13.4	0.59104
13.6	0.51017
13.8	0.4433
14	0.4135
14.2	0.4335
14.4	0.48145
14.6	0.47662
14.8	0.43824
15	0.43158
15.2	0.45903
15.4	0.45803
15.6	0.45447
15.8	0.47299
16	0.43185
16.2	0.39664
16.4	0.39933
16.6	0.40163
16.8	0.37629
17	0.37482
17.2	0.41644
17.4	0.47058
17.6	0.4967
17.8	0.46182
18	0.43267
18.2	0.42951
18.4	0.42909
18.6	0.4374
18.8	0.46071
19	0.49531
19.2	0.58453
19.4	0.7325
19.6	0.96394
19.8	1.3599
20	1.7028
20.2	1.656
20.4	1.4845
20.6	1.2046
20.8	1.1292
21	1.0726
21.2	0.8378
21.4	0.70565
21.6	0.75129
21.8	0.78547
22	0.62691
22.2	0.50431
22.4	0.51051
22.6	0.63081
22.8	0.70973
23	0.57043
23.2	0.4347
23.4	0.39757
23.6	0.45882
23.8	0.61109
24	0.66665
24.2	0.47565
24.4	0.29934
24.6	0.2033
24.8	0.14375
25	0.10411
25.2	0.079382
25.4	0.062973
25.6	0.051049
25.8	0.04232
26	0.036018
26.2	0.031489
26.4	0.028008
26.6	0.024584
26.8	0.021377
27	0.018782
27.2	0.016704
27.4	0.014999
27.6	0.013568
27.8	0.012347
28	0.011291
28.2	0.010369
28.4	0.0095569
28.6	0.0088371
28.8	0.0081951
29	0.0076196
29.2	0.0071014
29.4	0.0066328
29.6	0.0062076
29.8	0.0058204
30	0.0054668
30.2	0.0051429
30.4	0.0048454
30.6	0.0045716
30.8	0.004319
31	0.0040855
31.2	0.0038691
31.4	0.0036683
31.6	0.0034815
31.8	0.0033076
32	0.0031454
32.2	0.0029939
32.4	0.0028522
32.6	0.0027194
32.8	0.0025949
33	0.0024779
33.2	0.002368
33.4	0.0022645
33.6	0.002167
33.8	0.002075
34	0.0019882
34.2	0.0019062
34.4	0.0018286
34.6	0.0017551
34.8	0.0016855
35	0.0016196
35.2	0.0015569
35.4	0.0014975
35.6	0.001441
35.8	0.0013872
36	0.0013361
36.2	0.0012874
36.4	0.0012409
36.6	0.0011967
36.8	0.0011545
37	0.0011142
37.2	0.0010757
37.4	0.0010389
37.6	0.0010037
37.8	0.00097009
38	0.00093789
38.2	0.00090705
38.4	0.00087751
38.6	0.0008492
38.8	0.00082205
39	0.000796
39.2	0.000771
39.4	0.000747
39.6	0.00072395
39.8	0.0007018
40	0.00068051
40.2	0.00066003
40.4	0.00064034
40.6	0.00062138
40.8	0.00060314
41	0.00058557
41.2	0.00056864
41.4	0.00055233
41.6	0.00053661
41.8	0.00052145
42	0.00050682
42.2	0.00049272
42.4	0.0004791
42.6	0.00046595
42.8	0.00045326
43	0.000441
43.2	0.00042915
43.4	0.0004177
43.6	0.00040664
43.8	0.00039593
44	0.00038558
44.2	0.00037557
44.4	0.00036588
44.6	0.0003565
44.8	0.00034742
45	0.00033862
45.2	0.00033011
45.4	0.00032186
45.6	0.00031386
45.8	0.00030611
46	0.0002986
46.2	0.00029132
46.4	0.00028425
46.6	0.0002774
46.8	0.00027076
47	0.0002643
47.2	0.00025804
47.4	0.00025197
47.6	0.00024607
47.8	0.00024034
48	0.00023477
48.2	0.00022936
48.4	0.00022411
48.6	0.00021901
48.8	0.00021404
49	0.00020922
49.2	0.00020453
49.4	0.00019997
49.6	0.00019554
49.8	0.00019122
50	0.00018702
50.2	0.00018294
50.4	0.00017897
50.6	0.0001751
50.8	0.00017133
51	0.00016767
51.2	0.0001641
51.4	0.00016062
51.6	0.00015723
51.8	0.00015394
52	0.00015072
52.2	0.00014759
52.4	0.00014454
52.6	0.00014156
52.8	0.00013867
53	0.00013584
53.2	0.00013308
53.4	0.0001304
53.6	0.00012778
53.8	0.00012522
54	0.00012273
54.2	0.00012029
54.4	0.00011792
54.6	0.0001156
54.8	0.00011334
55	0.00011114
55.2	0.00010898
55.4	0.00010688
55.6	0.00010483
55.8	0.00010282
56	0.00010087
56.2	9.8956e-05
56.4	9.7089e-05
56.6	9.5265e-05
56.8	9.3483e-05
57	9.1742e-05
57.2	9.004e-05
57.4	8.8378e-05
57.6	8.6753e-05
57.8	8.5165e-05
58	8.3613e-05
58.2	8.2095e-05
58.4	8.0611e-05
58.6	7.916e-05
58.8	7.7742e-05
59	7.6354e-05
59.2	7.4997e-05
59.4	7.367e-05
59.6	7.2371e-05
59.8	7.1101e-05
60	6.9859e-05